<?xml version="1.0" encoding="UTF-8"?>

<Bundle xmlns="http://hl7.org/fhir">
  <id value="xds"/>
  <meta>
    <lastUpdated value="2013-07-01T13:11:33Z"/>
  </meta>
  <type value="transaction"/>
  <base value="cid:123@healthintersections.com.au"/>
  <entry>
    <resource>
      <DocumentReference><!--   although the resource has an id - which it might need so it can referred to 
      from within this transaction, the server is to treat it as a new resource (see transaction below)   -->
        <id value="a1"/>
        <meta>
          <lastUpdated value="2013-07-01T13:11:33Z"/>
        </meta>
        <text>
          <status value="generated"/>
          <div xmlns="http://www.w3.org/1999/xhtml">
            
            <a href="http://localhost:9556/svc/fhir/Binary/1e404af3-077f-4bee-b7a6-a9be97e1ce32">Document: urn:oid:129.6.58.92.88336</a>undefined, created 24/12/2005
            <hr/>
            <p>
              <b>Generated Narrative with Details</b>
            </p>
            <p>
              <b>text</b>: 
            </p>
            <p>
              <b>masterIdentifier</b>: urn:oid:129.6.58.92.88336
            </p>
            <p>
              <b>subject</b>: 
              <a href="cid:123@healthintersections.com.au/Patient/a2">cid:123@healthintersections.com.au/Patient/a2</a>
            </p>
            <p>
              <b>type</b>: History and Physical 
              <span style="background: LightGoldenRodYellow ">(Details : {http://ihe.net/connectathon/classCodes code &#39;History and Physical&#39; = &#39;History and Physical&#39;, given as &#39;History and Physical&#39;})</span>
            </p>
            <p>
              <b>format</b>: 
              <a href="urn:oid:1.3.6.1.4.1.19376.1.5.3.1.1.16.1.4">urn:oid:1.3.6.1.4.1.19376.1.5.3.1.1.16.1.4</a>
            </p>
            <p>
              <b>author</b>: 
              <a href="cid:123@healthintersections.com.au/Practitioner/a3">cid:123@healthintersections.com.au/Practitioner/a3</a>, 
              <a href="cid:123@healthintersections.com.au/Practitioner/a4">cid:123@healthintersections.com.au/Practitioner/a4</a>
            </p>
            <p>
              <b>created</b>: Dec 24, 2005
            </p>
            <p>
              <b>indexed</b>: Jul 1, 2013 11:11:33 PM
            </p>
            <p>
              <b>status</b>: CURRENT
            </p>
            <p>
              <b>description</b>: Physical
            </p>
            <p>
              <b>content</b>: 
            </p>
            <blockquote>
              <p>
                <b>context</b>
              </p>
              <p>
                <b>period</b>: Dec 23, 2004 9:00:00 AM --&gt; Dec 23, 2004 9:01:00 AM
              </p>
              <p>
                <b>practiceSetting</b>: General Medicine 
                <span style="background: LightGoldenRodYellow ">(Details : {http://ihe.net/connectathon/practiceSettingCodes code &#39;General Medicine&#39; = &#39;General Medicine&#39;, given as &#39;General Medicine&#39;})</span>
              </p>
            </blockquote>
          </div>
        </text>
        <masterIdentifier>
          <system value="urn:ietf:rfc:3986"/>
          <value value="urn:oid:129.6.58.92.88336"/>
        </masterIdentifier>
        <subject>
          <reference value="cid:123@healthintersections.com.au/Patient/a2"/>
        </subject>
        <type>
          <coding>
            <system value="http://ihe.net/connectathon/classCodes"/>
            <code value="History and Physical"/>
            <display value="History and Physical"/>
          </coding>
        </type>
        <format value="urn:oid:1.3.6.1.4.1.19376.1.5.3.1.1.16.1.4"/>
        <author>
          <reference value="cid:123@healthintersections.com.au/Practitioner/a3"/>
        </author>
        <author>
          <reference value="cid:123@healthintersections.com.au/Practitioner/a4"/>
        </author>
        <created value="2005-12-24"/>
        <indexed value="2013-07-01T23:11:33+10:00"/>
        <status value="current"/>
        <description value="Physical"/>
        <content>
          <contentType value="text/plain"/>
          <language value="en-us"/>
          <url value="http://localhost:9556/svc/fhir/Binary/1e404af3-077f-4bee-b7a6-a9be97e1ce32"/>
        </content>
        <context>
          <period>
            <start value="2004-12-23T08:00:00+10:00"/>
            <end value="2004-12-23T08:01:00+10:00"/>
          </period>
          <practiceSetting>
            <coding>
              <system value="http://ihe.net/connectathon/practiceSettingCodes"/>
              <code value="General Medicine"/>
              <display value="General Medicine"/>
            </coding>
          </practiceSetting>
        </context>
      </DocumentReference>
    </resource>
    <transaction>
      <method value="POST"/>
      <url value="DocumentReference"/>
    </transaction>
  </entry>
  <entry>
    <resource>
      <Patient><!--   if the server can find a matching resource, use that, else create a new 
      resource with these details   -->
        <id value="a2"/>
        <meta>
          <lastUpdated value="2013-07-01T13:11:33Z"/>
        </meta>
        <text>
          <status value="generated"/>
          <div xmlns="http://www.w3.org/1999/xhtml">Person DOE, John, M, dob: 27/05/1956
            <hr/>
            <p>
              <b>Generated Narrative with Details</b>
            </p>
            <p>
              <b>text</b>: 
            </p>
            <p>
              <b>identifier</b>: MRN (USUAL)
            </p>
            <p>
              <b>name</b>: DOE, John
            </p>
            <p>
              <b>birthDate</b>: May 27, 1956
            </p>
          </div>
        </text>
        <identifier>
          <use value="usual"/>
          <value value="MRN"/>
        </identifier>
        <name>
          <use value="usual"/>
          <text value="DOE, John"/>
          <family value="Doe"/>
          <given value="John"/>
        </name>
        <birthDate value="1956-05-27"/>
      </Patient>
    </resource>
    <transaction>
      <method value="POST"/>
      <url value="Patient"/>
      <ifNoneExist value="Patient?identifier=http://acme.org/xds/patients!89765a87b"/>
    </transaction>
  </entry>
  <entry>
    <resource>
      <Practitioner>
        <id value="a3"/>
        <meta>
          <lastUpdated value="2013-07-01T13:11:33Z"/>
        </meta>
        <text>
          <status value="generated"/>
          <div xmlns="http://www.w3.org/1999/xhtml">Author Gerald Smitty @ Cleveland Clinic
            <hr/>
            <p>
              <b>Generated Narrative with Details</b>
            </p>
            <p>
              <b>text</b>: 
            </p>
            <p>
              <b>name</b>: Gerald Smitty 
            </p>
            <blockquote>
              <p>
                <b>practitionerRole</b>
              </p>
              <p>
                <b>managingOrganization</b>: Cleveland Clinic
              </p>
              <p>
                <b>role</b>: Attending 
                <span style="background: LightGoldenRodYellow ">(Details : {[not stated] code &#39;Attending&#39; = &#39;Attending)</span>
              </p>
              <p>
                <b>specialty</b>: Orthopedic 
                <span style="background: LightGoldenRodYellow ">(Details : {[not stated] code &#39;Orthopedic&#39; = &#39;Orthopedic)</span>
              </p>
            </blockquote>
            <blockquote>
              <p>
                <b>practitionerRole</b>
              </p>
              <p>
                <b>managingOrganization</b>: Parma Community
              </p>
            </blockquote>
          </div>
        </text>
        <name>
          <use value="usual"/>
          <family value="Smitty"/>
          <given value="Gerald"/>
        </name>
        <practitionerRole>
          <managingOrganization>
            <display value="Cleveland Clinic"/>
          </managingOrganization>
          <role>
            <coding>
              <code value="Attending"/>
            </coding>
          </role>
          <specialty>
            <coding>
              <code value="Orthopedic"/>
            </coding>
          </specialty>
        </practitionerRole>
        <practitionerRole>
          <managingOrganization>
            <display value="Parma Community"/>
          </managingOrganization>
        </practitionerRole>
      </Practitioner>
    </resource>
    <transaction>
      <method value="POST"/>
      <url value="Practitioner"/>
    </transaction>
  </entry>
  <entry>
    <resource>
      <Practitioner>
        <id value="a4"/><!--   cid:51b578b4-3ccb-4e67-b0dc-ef519d82ef2d@healthintersections.com.au   -->
        <meta>
          <lastUpdated value="2013-07-01T13:11:33Z"/>
        </meta>
        <text>
          <status value="generated"/>
          <div xmlns="http://www.w3.org/1999/xhtml">Author Person @ Cleveland Clinic
            <hr/>
            <p>
              <b>Generated Narrative with Details</b>
            </p>
            <p>
              <b>text</b>: 
            </p>
            <p>
              <b>name</b>: Sherry Dopplemeyer 
            </p>
            <blockquote>
              <p>
                <b>practitionerRole</b>
              </p>
              <p>
                <b>managingOrganization</b>: Cleveland Clinic
              </p>
              <p>
                <b>role</b>: Primary Surgon 
                <span style="background: LightGoldenRodYellow ">(Details : {[not stated] code &#39;Primary Surgon&#39; = &#39;Primary Surgon)</span>
              </p>
              <p>
                <b>specialty</b>: Orthopedic 
                <span style="background: LightGoldenRodYellow ">(Details : {[not stated] code &#39;Orthopedic&#39; = &#39;Orthopedic)</span>
              </p>
            </blockquote>
            <blockquote>
              <p>
                <b>practitionerRole</b>
              </p>
              <p>
                <b>managingOrganization</b>: Berea Community
              </p>
            </blockquote>
          </div>
        </text>
        <name>
          <use value="usual"/>
          <family value="Dopplemeyer"/>
          <given value="Sherry"/>
        </name>
        <practitionerRole>
          <managingOrganization>
            <display value="Cleveland Clinic"/>
          </managingOrganization>
          <role>
            <coding>
              <code value="Primary Surgon"/>
            </coding>
          </role>
          <specialty>
            <coding>
              <code value="Orthopedic"/>
            </coding>
          </specialty>
        </practitionerRole>
        <practitionerRole>
          <managingOrganization>
            <display value="Berea Community"/>
          </managingOrganization>
        </practitionerRole>
      </Practitioner>
    </resource>
    <transaction>
      <method value="POST"/>
      <url value="Practitioner"/>
    </transaction>
  </entry>
  <entry>
    <resource>
      <Binary>
        <id value="1e404af3-077f-4bee-b7a6-a9be97e1ce32"/>
        <meta>
          <lastUpdated value="2013-07-01T13:11:33Z"/>
        </meta>
        <contentType value="text/plain"/>
        <content value="YXNkYXNkYXNkYXNkYXNk"/>
      </Binary>
    </resource>
    <transaction>
      <method value="POST"/>
      <url value="Binary"/>
    </transaction>
  </entry>
</Bundle>